# Created by:        SpecsLab Prodigy, Version 4.91.3-r105809 
#
# XY-Serializer Export Settings:
#   Comment Prefix:           #
#   Output Meta Data:         yes
#   Energy Axis:              Kinetic Energy
#   Count Rate:               Counts per Second
#   Separate Scan Data:       no
#   Separate Channel Data:    no
#   External Channel Data:    yes
#   Transmission Function:    no
#   Error Bar:                no
#   Operation Results:        yes
#   Time Zone Format:         UTC
#
# Group:                        Transmission cyclic
#
# Region:                       CuLMM
# Spectrum ID:                  11
# Acquisition Date:             06/01/22 10:51:19 UTC
# Analysis Method:              XPS
# Analyzer Lens:                SmallArea:1.5kV
# Analyzer Slit:                4:7x20c\B:open
# Scan Mode:                    FixedAnalyzerTransmission
# Curves/Scan:                  1
# Values/Curve:                 201
# Dwell Time:                   0.1
# Excitation Energy:            1486.61
# Kinetic Energy:               906.61
# Pass Energy:                  20
# Bias Voltage:                 90
# Detector Voltage:             1850
# Eff. Workfunction:            4.14
# Source:                       X-Ray Dummy
# Comment:                      
# OrdinateRange:                [-22.000000, 22.000000]

# Cycle: 0
#
# Number of Scans: 25

# Cycle: 0, Curve: 0
#
# Acquisition Date:             06/01/22 10:51:19 UTC
# ColumnLabels:                 energy counts/s
#
906.61  4724.6815
906.71  4716.6853
906.81  4729.8621
906.91  4700.1283
907.01  4763.107
907.11  4732.4353
907.21  4690.0641
907.31  4586.7645
907.41  4701.2785
907.51  4791.1608
907.61  4774.9083
907.71  4650.8732
907.81  4737.8379
907.91  4752.7189
908.01  4740.1315
908.11  4760.3102
908.21  4734.2424
908.31  4664.0901
908.41  4689.4842
908.51  4725.8601
908.61  4760.7455
908.71  4706.1482
908.81  4713.2328
908.91  4706.6695
909.01  4757.6018
909.11  4731.7592
909.21  4718.7417
909.31  4708.8356
909.41  4777.4819
909.51  4841.3519
909.61  4725.9995
909.71  4744.8033
909.81  4793.7702
909.91  4755.1098
910.01  4781.418
910.11  4784.2349
910.21  4755.496
910.31  4775.8828
910.41  4836.0507
910.51  4808.1275
910.61  4846.152
910.71  4866.2
910.81  4849.5318
910.91  4886.9234
911.01  4877.6974
911.11  4820.4801
911.21  4833.5821
911.31  4969.6227
911.41  4911.6751
911.51  4942.5645
911.61  4980.3165
911.71  4924.7513
911.81  4921.6907
911.91  4933.443
912.01  4949.8133
912.11  4971.6195
912.21  5009.4307
912.31  4938.0385
912.41  5024.4792
912.51  5019.9119
912.61  5037.3796
912.71  5030.0699
912.81  5015.8031
912.91  5053.9564
913.01  5107.9386
913.11  5151.8983
913.21  5178.645
913.31  5090.9355
913.41  5061.7697
913.51  5141.4495
913.61  5117.3346
913.71  5087.3482
913.81  5136.5664
913.91  5146.0208
914.01  5141.0548
914.11  5162.1048
914.21  5138.4816
914.31  5139.3205
914.41  5192.9907
914.51  5199.4803
914.61  5224.0241
914.71  5288.4853
914.81  5255.8135
914.91  5300.9832
915.01  5346.9238
915.11  5282.4949
915.21  5286.2935
915.31  5319.3184
915.41  5259.0607
915.51  5297.5048
915.61  5376.2008
915.71  5319.588
915.81  5438.5127
915.91  5368.1953
916.01  5421.5051
916.11  5468.5035
916.21  5482.9012
916.31  5511.7393
916.41  5542.7143
916.51  5610.2576
916.61  5685.9912
916.71  5722.4888
916.81  5871.4155
916.91  5965.56
917.01  6179.431
917.11  6275.6292
917.21  6376.4142
917.31  6547.4862
917.41  6562.261
917.51  6786.9177
917.61  6751.1762
917.71  6743.8607
917.81  6712.2535
917.91  6708.1467
918.01  6536.784
918.11  6354.6679
918.21  6196.6736
918.31  6007.6922
918.41  5880.4827
918.51  5712.6651
918.61  5648.4384
918.71  5570.6596
918.81  5403.1897
918.91  5261.8269
919.01  5280.6269
919.11  5199.7563
919.21  5108.9133
919.31  5036.3524
919.41  4991.4801
919.51  4930.3534
919.61  4958.8213
919.71  4888.5185
919.81  4933.8221
919.91  4997.5751
920.01  4938.2985
920.11  4922.9121
920.21  4997.0342
920.31  4992.9708
920.41  5013.0237
920.51  4959.6726
920.61  4965.8899
920.71  4899.6483
920.81  4834.9464
920.91  4692.2057
921.01  4728.701
921.11  4689.8705
921.21  4640.0519
921.31  4553.4412
921.41  4519.3873
921.51  4488.2134
921.61  4498.4648
921.71  4427.771
921.81  4423.146
921.91  4336.5518
922.01  4364.2268
922.11  4355.986
922.21  4364.3739
922.31  4293.3678
922.41  4238.7595
922.51  4248.8913
922.61  4320.4659
922.71  4342.8598
922.81  4265.9546
922.91  4263.4359
923.01  4339.1619
923.11  4283.1597
923.21  4301.1173
923.31  4317.6289
923.41  4279.9746
923.51  4249.8752
923.61  4249.6213
923.71  4240.2931
923.81  4317.7729
923.91  4317.5825
924.01  4271.7699
924.11  4261.6231
924.21  4209.9269
924.31  4230.4283
924.41  4252.2189
924.51  4213.4584
924.61  4220.4409
924.71  4210.132
924.81  4202.8483
924.91  4252.4402
925.01  4246.5454
925.11  4193.4642
925.21  4200.3703
925.31  4190.9774
925.41  4125.4737
925.51  4189.5606
925.61  4149.5743
925.71  4189.3524
925.81  4173.5035
925.91  4212.1778
926.01  4173.3156
926.11  4226.4431
926.21  4159.4508
926.31  4117.4417
926.41  4177.7865
926.51  4207.9888
926.61  4145.7373

# External Channel Data Cycle: 0, Temp1_Sen [K] (EBH 150)
#
# ColumnLabels: energy Temp1_Sen [K] (EBH 150)
#
906.61 415.08832000000007
906.71 415.08836000000008
906.81 415.08608000000015
906.91 415.08672000000013
907.01 415.08572000000015
907.11 415.08636000000013
907.21 415.08668000000006
907.31 415.08748000000008
907.41 415.08796000000001
907.51 415.0872
907.61 415.08736000000005
907.71 415.08704
907.81 415.08532000000008
907.91 415.08520000000004
908.01 415.08552000000009
908.11 415.08384000000012
908.21 415.08424000000008
908.31 415.08440000000007
908.41 415.08468000000016
908.51 415.08396000000016
908.61 415.08372000000008
908.71 415.08372000000008
908.81 415.08284000000009
908.91 415.08352000000008
909.01 415.08420000000007
909.11 415.08476000000007
909.21 415.08411999999998
909.31 415.08488
909.41 415.08524
909.51 415.08467999999999
909.61 415.08431999999999
909.71 415.08460000000008
909.81 415.08368000000007
909.91 415.08404000000007
910.01 415.08404000000007
910.11 415.08480000000009
910.21 415.08472000000006
910.31 415.08300000000003
910.41 415.08315999999996
910.51 415.08223999999996
910.61 415.08223999999996
910.71 415.08247999999998
910.81 415.08235999999999
910.91 415.08271999999999
911.01 415.08375999999998
911.11 415.08407999999986
911.21 415.08271999999988
911.31 415.08271999999988
911.41 415.08271999999988
911.51 415.08291999999994
911.61 415.08319999999998
911.71 415.08372000000003
911.81 415.08164000000005
911.91 415.07996000000009
912.01 415.07992000000007
912.11 415.08088000000004
912.21 415.08099999999996
912.31 415.08112
912.41 415.08168000000001
912.51 415.08032000000009
912.61 415.07923999999997
912.71 415.07959999999997
912.81 415.07996000000009
912.91 415.07980000000003
913.01 415.08044000000001
913.11 415.08007999999995
913.21 415.08075999999994
913.31 415.07963999999993
913.41 415.07959999999991
913.51 415.07988
913.61 415.07979999999998
913.71 415.07975999999996
913.81 415.08023999999989
913.91 415.07907999999986
914.01 415.07923999999986
914.11 415.08019999999988
914.21 415.08039999999988
914.31 415.0806399999999
914.41 415.08103999999992
914.51 415.07844000000006
914.61 415.07744000000008
914.71 415.07732000000004
914.81 415.07711999999998
914.91 415.07743999999997
915.01 415.07796000000002
915.11 415.07692000000003
915.21 415.07688000000002
915.31 415.07715999999999
915.41 415.07732000000004
915.51 415.07571999999999
915.61 415.07595999999995
915.71 415.07459999999998
915.81 415.07451999999995
915.91 415.07455999999996
916.01 415.07483999999999
916.11 415.07575999999995
916.21 415.07419999999996
916.31 415.07455999999996
916.41 415.07480000000004
916.51 415.07456000000008
916.61 415.07288
916.71 415.07372000000004
916.81 415.07287999999994
916.91 415.07311999999996
917.01 415.07347999999996
917.11 415.07375999999999
917.21 415.07455999999996
917.31 415.07315999999997
917.41 415.07331999999997
917.51 415.07315999999997
917.61 415.07303999999999
917.71 415.07195999999999
917.81 415.07192000000003
917.91 415.0718
918.01 415.07207999999997
918.11 415.07059999999996
918.21 415.07059999999996
918.31 415.07099999999997
918.41 415.07011999999997
918.51 415.07063999999991
918.61 415.07127999999994
918.71 415.07220000000001
918.81 415.07152000000008
918.91 415.07184000000001
919.01 415.0718
919.11 415.0723200000001
919.21 415.07264000000004
919.31 415.07280000000009
919.41 415.07328000000001
919.51 415.07224000000002
919.61 415.07080000000008
919.71 415.07124000000005
919.81 415.07124000000005
919.91 415.07148000000007
920.01 415.07116000000019
920.11 415.06996000000004
920.21 415.07056000000006
920.31 415.06892000000005
920.41 415.06904000000003
920.51 415.06888000000004
920.61 415.06888000000004
920.71 415.06892000000005
920.81 415.06800000000004
920.91 415.06688000000008
921.01 415.06652000000003
921.11 415.06695999999994
921.21 415.06727999999998
921.31 415.06747999999993
921.41 415.06747999999988
921.51 415.06747999999993
921.61 415.06707999999992
921.71 415.06727999999998
921.81 415.06771999999995
921.91 415.06811999999996
922.01 415.06836000000004
922.11 415.06851999999998
922.21 415.06843999999995
922.31 415.06464000000005
922.41 415.06523999999996
922.51 415.06495999999999
922.61 415.06487999999996
922.71 415.065
922.81 415.06563999999997
922.91 415.06452000000007
923.01 415.06456000000003
923.11 415.06468000000007
923.21 415.065
923.31 415.06371999999993
923.41 415.06383999999997
923.51 415.06395999999995
923.61 415.0627199999999
923.71 415.06307999999996
923.81 415.06307999999996
923.91 415.06371999999993
924.01 415.06235999999996
924.11 415.06235999999996
924.21 415.06247999999999
924.31 415.06143999999995
924.41 415.06143999999995
924.51 415.06239999999991
924.61 415.06219999999996
924.71 415.06171999999992
924.81 415.06179999999995
924.91 415.06059999999991
925.01 415.06023999999996
925.11 415.06019999999995
925.21 415.05995999999999
925.31 415.05868000000004
925.41 415.05888000000004
925.51 415.05940000000004
925.61 415.05995999999999
925.71 415.06051999999994
925.81 415.05923999999993
925.91 415.05995999999982
926.01 415.05903999999987
926.11 415.05915999999985
926.21 415.05911999999984
926.31 415.0589999999998
926.41 415.05855999999994
926.51 415.05811999999997
926.61 415.05792000000008

