VAMAS Surface Chemical Analysis Standard Data Transfer Format 1988 May 4
Specs
PHOIBOS HSA3500 DLD 150 R7[HWType 30:101] DLD
ppxcf1
?
1
Created by SpecsLab Prodigy, Version 4.91.3-r105809 
NORM
REGULAR
1
0
0
0
0
0
1
Wide4
Transmission cyclic
2022
6
1
11
8
53
0
9
File = C:/Users/ppxcf1/Desktop/Data/XPS/01-Jun-2022/Experiment 2022-06-01_CuMnAs (1).sle
Group = Transmission cyclic
First of group = 1
Spectrum ID = 13
Analyzer lens = SmallArea:1.5kV
Analyzer slit = 4:7x20c\B:open
Scan mode = FixedAnalyzerTransmission
Kinetic energy start = 386.61
OrdinateRange = [-22.000000, 22.000000]
XPS
Al
1486.61
0
0
0
54.500000
180.000000
FAT
100
1
4.14
0
0
0
0
0
Wide4

-1
kinetic energy
eV
386.61
1
2
counts
d
Transmission
d
pulse counting
0.5
1
0
0
0
0
0
2212
3.16834
15600.3
1
1
6901.59
1
6965.65
1
7106.8
1
7076.7
1
7046.06
1
6736.51
1
6848.94
1
6872.5
1
6861.54
1
6715.86
1
6668.24
1
6705.68
1
6769.11
1
6933.62
1
6810.85
1
6968.55
1
6885.74
1
6826.74
1
6836.83
1
6863.71
1
6908.17
1
6808.26
1
6868.55
1
7005.63
1
6921.88
1
7095.23
1
7004.62
1
7012.23
1
7003.74
1
6983.32
1
7084.52
1
7081.7
1
7170.41
1
7139.58
1
7195.82
1
7145.06
1
7200.66
1
7299.74
1
7293.26
1
7255.01
1
7302.05
1
7236.72
1
7321.66
1
7269.32
1
7360.95
1
7336.82
1
7356.97
1
7403.55
1
7457.83
1
7584.5
1
7471.67
1
7446.34
1
7567.64
1
7667.84
1
7698.02
1
7538.93
1
7530.92
1
7759.22
1
7729.04
1
7716.4
1
7724.58
1
7945.34
1
7905.21
1
7856.25
1
7895.77
1
7819.72
1
7880.47
1
7912.08
1
7843.6
1
7915.2
1
8086.81
1
8034.12
1
8072.36
1
8179.04
1
8272.57
1
8148.85
1
8201.47
1
8220.06
1
8155.12
1
8393.21
1
8135.74
1
8257.34
1
8393.72
1
8419.53
1
8409.5
1
8323.1
1
8496.3
1
8483.16
1
8656.13
1
8700.85
1
8775.87
1
8860.75
1
8847.83
1
8798.52
1
8776.79
1
8807.82
1
8796.75
1
8913.13
1
8909.93
1
8862.21
1
8997.43
1
9033.31
1
9077.97
1
9107.42
1
9062.8
1
9075.65
1
9132.03
1
9319.31
1
9481.35
1
9361.27
1
9413.42
1
9371.67
1
9285.53
1
9613.19
1
9598.6
1
9568.31
1
9697.87
1
9599.73
1
9461.42
1
9668.24
1
9903.49
1
9980.71
1
10014.8
1
9892.01
1
9855.36
1
9956.75
1
9954.02
1
10125.7
1
9921.8
1
10164.1
1
10174.4
1
10158.5
1
10166.7
1
10128.3
1
10152.4
1
10095.9
1
9852.76
1
9962.69
1
9874.38
1
9982.46
1
10063.3
1
9875.26
1
9945.61
1
10253
1
10801.4
1
11694.1
1
12978.2
1
13037.5
1
11676.6
1
10569
1
10285.3
1
10089.4
1
9790.86
1
9667.26
1
9535.2
1
9383.1
1
9177.72
1
8887.76
1
8586.78
1
8456.76
1
8493.29
1
8599.87
1
8716.4
1
8945.73
1
9624.36
1
11973.8
1
15600.3
1
14567.7
1
10708.3
1
8456.71
1
7967.36
1
7829.3
1
7872.02
1
7781.62
1
7805.18
1
7792.33
1
7756.98
1
7757.89
1
7483.55
1
7716.22
1
7996.52
1
7946.83
1
7969.49
1
7858.5
1
7888.09
1
7936.72
1
7958.06
1
7916.29
1
7951.35
1
8021.91
1
7888.83
1
7872.41
1
8145.86
1
8046.55
1
8080.45
1
8253.66
1
8290.44
1
8381.59
1
8348.42
1
8361
1
8414.48
1
8281.86
1
8301.59
1
8315.41
1
8282.76
1
8009.29
1
7852.58
1
7937.6
1
7839.68
1
7679.39
1
7754.05
1
7717.51
1
7695.31
1
7842.34
1
7749.11
1
7885.27
1
7872.41
1
7843.6
1
7748.58
1
7634.31
1
7613.49
1
7774.25
1
7888.69
1
7891.34
1
7858.47
1
7860.94
1
7936.4
1
8019.09
1
8137.79
1
8002.07
1
7994.38
1
8042.81
1
7934.53
1
7976.41
1
8133.71
1
8150.24
1
8150.56
1
8054.47
1
8118.38
1
8223.85
1
8111.84
1
8037.53
1
8318.89
1
8251.21
1
8311.98
1
8464.84
1
8450.49
1
8484.77
1
8591.77
1
8584.76
1
8616.84
1
8566.43
1
8503.02
1
8374.68
1
8336.76
1
8249.02
1
8173.74
1
8240.88
1
8266.77
1
8281.45
1
8327.77
1
8460.12
1
8394.29
1
8265
1
8048.07
1
8219.43
1
8358.11
1
8398.7
1
8453.79
1
8489.36
1
8510.88
1
8453.12
1
8580.09
1
8582.38
1
8708.08
1
8642.55
1
8636.75
1
8616.89
1
8724.26
1
8742.6
1
8611.05
1
8697.94
1
8711.64
1
8720.18
1
8820.96
1
8930.63
1
8772.4
1
8780.15
1
8771.62
1
8665.49
1
8933.58
1
8862.63
1
8979.94
1
8836.23
1
8976.73
1
9085.19
1
9129.89
1
9153.8
1
9176.45
1
9033.06
1
9018.28
1
8929.04
1
9189.78
1
9093.76
1
9154.95
1
9246.93
1
9139.98
1
9305.54
1
9273.72
1
9307
1
9398.85
1
9428.46
1
9315.71
1
9366.49
1
9233.5
1
9353.41
1
9368.42
1
9409.02
1
9563.93
1
9656.46
1
9552.33
1
9557.31
1
9617.55
1
9771.48
1
9767.28
1
10037.3
1
9863.56
1
9846.8
1
9836.96
1
9904.49
1
9885.36
1
9823.2
1
9903.58
1
9836.03
1
9821.43
1
9589.53
1
9605.88
1
9675.63
1
9751.77
1
9741.88
1
9661.5
1
9743.24
1
9682.52
1
9682.56
1
9684.9
1
9759.18
1
9923.12
1
9728.52
1
9712.02
1
9817.62
1
9689.6
1
9863.8
1
9842.04
1
9548.53
1
9916.01
1
9962.16
1
10021.3
1
10178.6
1
9954.21
1
10110
1
10102.3
1
10076.3
1
9859.72
1
10062.9
1
9984.14
1
9969.44
1
10223.7
1
10156.3
1
10266.1
1
10236.2
1
10373.7
1
10484.5
1
10596.1
1
10404.7
1
10207.2
1
10351.8
1
10483.9
1
10558.9
1
10492.5
1
10503.9
1
10692
1
10777.6
1
10751
1
10438.7
1
10318.5
1
10641.1
1
10743.7
1
10601.5
1
10576.4
1
10465.7
1
10330.1
1
10168.3
1
10199.7
1
10194.4
1
10064.9
1
10174.6
1
10101.8
1
9858.5
1
10053.3
1
10173
1
10079
1
10133.9
1
10148.4
1
10001.3
1
9967.7
1
10144
1
10347.7
1
10338.5
1
10146.1
1
10177.7
1
10230.4
1
10090.5
1
10203
1
10275.9
1
10239.5
1
10316.8
1
10323.6
1
10354.4
1
10277.3
1
10309.3
1
10539.7
1
10590
1
10708.4
1
10606.2
1
10380.6
1
10599.9
1
10638.8
1
10764.8
1
10966.4
1
10972
1
11040.3
1
11088.4
1
11090.6
1
11015.9
1
11148.1
1
11240.1
1
11269.8
1
11238
1
11283.1
1
11461
1
11390.6
1
11576.7
1
11854.5
1
11565
1
11620.8
1
11651.6
1
11740.7
1
11944.4
1
12241.3
1
12178.8
1
11926.7
1
12075.8
1
11802.8
1
11616.1
1
11332.7
1
11473.8
1
11431.7
1
11512.2
1
11692.9
1
11979.2
1
11692.2
1
10772.3
1
9874.91
1
9344.27
1
8927.02
1
8801.92
1
8761.18
1
8786.48
1
8722.73
1
8740.69
1
8656.55
1
8860.72
1
8850.95
1
8815.64
1
8519.09
1
8556.66
1
8631.07
1
8690.05
1
8593.1
1
8634.02
1
8576.96
1
8788.02
1
8577.76
1
8588.97
1
8681.44
1
8611.25
1
8578.34
1
8567.42
1
8640.11
1
8677.3
1
8785
1
8670.16
1
8623.3
1
8494.9
1
8700.85
1
8789.14
1
8828.59
1
8793.64
1
8841.07
1
8984
1
8933.25
1
9159.09
1
8987.38
1
8976.55
1
9068.54
1
9076.57
1
9242.32
1
9093.3
1
9175.12
1
9181.79
1
9204.34
1
9335.21
1
9415.4
1
9190.92
1
9151.72
1
9054.79
1
9132.78
1
9201.56
1
9264.86
1
9081.61
1
9133.05
1
9145.94
1
9385.58
1
9246.02
1
9415.22
1
9547.24
1
9849.66
1
9938.03
1
10245.5
1
10663
1
11035.9
1
11421.3
1
10900.3
1
9834.45
1
9277.05
1
8456.54
1
8155.99
1
8176.9
1
8032.02
1
7926.6
1
7899.11
1
7992.54
1
7949.34
1
7910.81
1
7762.69
1
7911.26
1
7922.39
1
7920.58
1
7739.84
1
8129.49
1
8126.96
1
8331.84
1
8208.88
1
7889.91
1
7616.66
1
7664.44
1
7554.77
1
7561.13
1
7562.73
1
7678.09
1
7498.37
1
7961.56
1
7850.37
1
7821.58
1
7872.37
1
7842.17
1
7801.87
1
7829.74
1
7878.04
1
7891.31
1
7757.59
1
7596.72
1
7545.52
1
7602.38
1
7610.86
1
7758.57
1
7653.49
1
7888.89
1
7890.43
1
7931.2
1
8030.74
1
7953.48
1
8104.83
1
8070.48
1
8069.74
1
7998.77
1
7792.6
1
7548.95
1
7423.27
1
7496
1
7523.33
1
7575.27
1
7643.86
1
7815.63
1
7960.89
1
7655.84
1
7689.37
1
7607.5
1
7624.41
1
7514.2
1
7500.33
1
7496.5
1
7533.89
1
7464.63
1
7506.51
1
7495.71
1
7516.06
1
7453.88
1
7581.35
1
7582.47
1
7867
1
7931.77
1
7820.37
1
7856.13
1
7757.2
1
7755.87
1
7692.93
1
7682.24
1
7810.13
1
7729.08
1
7752.47
1
7769.15
1
7657.35
1
7626.55
1
7740.08
1
7598.96
1
7774.35
1
7876.21
1
7817.65
1
8067.56
1
7966.03
1
8061.41
1
8153.43
1
8142.69
1
7998.97
1
7981.27
1
7947.8
1
7897.6
1
7904.02
1
8082.27
1
8199.6
1
8353.75
1
8252.93
1
8279.78
1
8026.6
1
7735.43
1
7532.25
1
7419.84
1
7330.2
1
7174.89
1
7202.31
1
7128.56
1
7187.73
1
7130.48
1
7053.65
1
7080.2
1
7205.35
1
7298.73
1
7182.52
1
7459.08
1
7464.88
1
7515.09
1
7554.65
1
7754.71
1
7598.27
1
7537.73
1
7442.13
1
7502.8
1
7455.61
1
7383.04
1
7417.05
1
7228.34
1
7231.61
1
7217.29
1
7179.69
1
7327.63
1
7292.7
1
7313.99
1
7656.74
1
8155.83
1
7825.55
1
7200.83
1
7009.67
1
6773.82
1
6510.2
1
6312.7
1
6317.66
1
6274.42
1
6325.09
1
6131.86
1
6105.67
1
6268.1
1
6171.34
1
6203.41
1
6201.39
1
6114.77
1
6155.14
1
6137.84
1
6158.47
1
6285.04
1
6283.31
1
6282.87
1
6466.5
1
6541.22
1
6479.6
1
6907.05
1
7186.58
1
7014.69
1
6746.73
1
6689.61
1
6526.36
1
6554.01
1
6387
1
6356.23
1
6381.71
1
6271.46
1
6429.18
1
6419.2
1
6474.19
1
6255.27
1
6434.87
1
6576.14
1
6544.23
1
6582.52
1
6842.33
1
6966.96
1
7238.36
1
7417.51
1
7773.86
1
7888.51
1
7759.55
1
7311.31
1
6815.9
1
6401.63
1
6413
1
6370.19
1
6351.97
1
6437.35
1
6811.27
1
6933.71
1
6946.52
1
7079.06
1
6690.7
1
6317.47
1
5943.02
1
5826.04
1
5641.61
1
5481.2
1
5285.46
1
5318.04
1
5386.43
1
5136.74
1
5112.42
1
5225.23
1
5204.59
1
5216.6
1
5186.78
1
5246.77
1
5259.59
1
5167.76
1
5244.22
1
5544.8
1
5720.07
1
5980.1
1
6200.85
1
6233.11
1
6143.01
1
5740.5
1
5463.12
1
5319.88
1
5113.36
1
5069.16
1
5170.68
1
5246.11
1
5072.88
1
5127.95
1
4929.85
1
4889.64
1
4887.29
1
4871.96
1
4841.28
1
4721.38
1
4661.29
1
4678.55
1
4774.81
1
4778.33
1
4801.76
1
4766.98
1
4966.06
1
5091.25
1
4974.44
1
4935.3
1
5078.72
1
4838.39
1
4975.03
1
5008.37
1
4987.02
1
4958.15
1
4886.19
1
4933.98
1
4961.11
1
4996.7
1
5019.58
1
5056.21
1
5120.73
1
5179.36
1
5225.58
1
5280.86
1
5284.16
1
5331.95
1
5429.84
1
5515.64
1
5543.85
1
5722.06
1
6122.57
1
6318.83
1
6032.29
1
6014.31
1
6140.66
1
6122.56
1
6386.68
1
6323.98
1
6398.03
1
6260.24
1
6167.74
1
5985.91
1
5912.26
1
5847.5
1
5761.53
1
5744.53
1
5859.38
1
5911.69
1
6205.79
1
6384.77
1
6674.36
1
7010.71
1
7767.55
1
9178.97
1
11038.6
1
11817.4
1
10058.9
1
8023.03
1
7102.04
1
6650.8
1
6008.05
1
4925.07
1
4138.03
1
3749.69
1
3679.29
1
3686.41
1
3735.45
1
3719.84
1
3773.72
1
3803.87
1
3699.25
1
3715.48
1
3785.16
1
3847.11
1
3758.09
1
3715.25
1
3776.57
1
3770.89
1
3706.01
1
3657.55
1
3634.18
1
3635.54
1
3629.37
1
3690.35
1
3754.28
1
3766.3
1
3978.06
1
4329.27
1
4863.76
1
5586.45
1
6747.39
1
6652.01
1
5486.04
1
4457.12
1
3845.83
1
3592.02
1
3077.35
1
2822.45
1
2599.12
1
2641.87
1
2533.12
1
2563.74
1
2519.8
1
2603.52
1
2713.95
1
2608.49
1
2687.68
1
2740.85
1
2763.25
1
2874.76
1
2956.05
1
3174.26
1
2958.59
1
2711.28
1
2419.68
1
2309.44
1
2272.5
1
2310.46
1
2286.9
1
2182.56
1
2096.77
1
2228.48
1
2270.75
1
2243.76
1
2351.76
1
2229.59
1
2264.94
1
2339.37
1
2328.52
1
2445.88
1
2346.55
1
2315.95
1
2227.77
1
2207.51
1
2199.12
1
2263.2
1
2314.38
1
2335.91
1
2454.2
1
2450.93
1
2479.58
1
2507.7
1
2506.03
1
2411.08
1
2374.4
1
2380.96
1
2423.07
1
2422.67
1
2365.31
1
2456.7
1
2421.2
1
2515.02
1
2556.04
1
2645.99
1
2737.29
1
2807.02
1
2761.75
1
2693.07
1
2512.91
1
2399.19
1
2380.27
1
2348.31
1
2414.08
1
2446.38
1
2380.93
1
2488.98
1
2531.73
1
2592.49
1
2843.07
1
3036.08
1
3305.06
1
3316.42
1
3091.87
1
3090.33
1
3417.45
1
3776.78
1
3473.33
1
2809.84
1
2176.44
1
1871.34
1
1741.62
1
1613.68
1
1702.86
1
1625.27
1
1606.44
1
1760.42
1
1856.77
1
1927.37
1
1820.53
1
1714.44
1
1784.07
1
1938.48
1
2046.17
1
2007.51
1
1805.39
1
1646.31
1
1574.41
1
1532.96
1
1440.26
1
1445.15
1
1417.04
1
1371.24
1
1371.81
1
1380.57
1
1498.75
1
1513.47
1
1620.1
1
1706.17
1
1661.37
1
1674.18
1
1743.44
1
1813.17
1
1715.61
1
1543.99
1
1421.49
1
1387.29
1
1338.07
1
1384.93
1
1402.29
1
1462.25
1
1440.35
1
1367.64
1
1412.6
1
1469.03
1
1368.07
1
1365.37
1
1340.34
1
1327.52
1
1337.4
1
1338.87
1
1355.54
1
1344.15
1
1393.11
1
1437.46
1
1463.22
1
1445.2
1
1689.01
1
1887.33
1
2066.4
1
2180.74
1
2131.01
1
1797.11
1
1399.61
1
1259.01
1
1104.87
1
1075.79
1
1084.59
1
1054.09
1
978.038
1
986.918
1
954.093
1
1054.37
1
1056.87
1
1069.42
1
1021.11
1
980.71
1
1037.11
1
943.2
1
967.459
1
994.962
1
923.988
1
922.021
1
964.719
1
928.231
1
925.525
1
1031.74
1
1028.9
1
1189.47
1
1225.93
1
1036.59
1
890.794
1
926.768
1
1129.08
1
1750.06
1
2388.59
1
1927.62
1
1043.65
1
534.786
1
450.057
1
431.797
1
416.608
1
401.937
1
365.55
1
367.424
1
348.639
1
369.886
1
364.093
1
333.744
1
340.611
1
334.468
1
309.666
1
356.221
1
373.918
1
386.271
1
415.588
1
586.903
1
772.777
1
618.276
1
391.205
1
296.648
1
254.206
1
241.931
1
299.779
1
313.639
1
256.547
1
249.486
1
248.958
1
248
1
314.072
1
412.903
1
584.713
1
727.316
1
703.781
1
557.824
1
361.417
1
175.673
1
56.2299
1
19.8585
1
9.44247
1
3.16834
1
4.94825
1
6.90255
1
end of experiment
