VAMAS Surface Chemical Analysis Standard Data Transfer Format 1988 May 4
Specs
PHOIBOS HSA3500 DLD 150 R7[HWType 30:101] DLD
ppxcf1
?
1
Created by SpecsLab Prodigy, Version 4.91.3-r105809 
NORM
REGULAR
1
0
0
0
0
0
1
As3d1
Transmission cyclic
2022
6
1
8
46
32
0
9
File = C:/Users/ppxcf1/Desktop/Data/XPS/01-Jun-2022/Experiment 2022-06-01_CuMnAs (1).sle
Group = Transmission cyclic
First of group = 1
Spectrum ID = 4
Analyzer lens = SmallArea:1.5kV
Analyzer slit = 4:7x20c\B:open
Scan mode = FixedAnalyzerTransmission
Kinetic energy start = 1434.61
OrdinateRange = [-22.000000, 22.000000]
XPS
Al
1486.61
0
0
0
54.500000
180.000000
FAT
20
1
4.14
0
0
0
0
0
As3d1

-1
kinetic energy
eV
1434.61
0.1
2
counts
d
Transmission
d
pulse counting
0.1
10
0
0
0
0
0
362
73.875
4948.61
1
1
393.69
1
412.367
1
478.999
1
492.025
1
438.908
1
468.446
1
456.65
1
412.467
1
447.522
1
461.514
1
454.029
1
429.388
1
460.09
1
460.549
1
459.145
1
452.32
1
426.327
1
397.189
1
417.172
1
461.01
1
399.113
1
423.185
1
443.264
1
395.086
1
404.776
1
408.91
1
430.938
1
404.498
1
399.913
1
369.969
1
403.449
1
408.093
1
393.415
1
376.06
1
376.411
1
371.422
1
348.865
1
351.529
1
391.985
1
379.79
1
360.785
1
374.758
1
370.531
1
373.632
1
391.2
1
378.73
1
390.026
1
378.694
1
387.397
1
365.481
1
398.834
1
386.457
1
374.693
1
402.226
1
438.968
1
385.923
1
399.508
1
407.982
1
420.95
1
446.975
1
430.322
1
435.698
1
461.245
1
486.111
1
470.472
1
475.041
1
505.899
1
511.155
1
527.583
1
582.115
1
524.557
1
506.999
1
566.94
1
490.107
1
485.661
1
520.231
1
501.734
1
489.967
1
481.95
1
503.245
1
522.086
1
562.47
1
579.834
1
603.711
1
710.59
1
804.355
1
895.743
1
1197.87
1
1503.48
1
2005.62
1
2663.69
1
3273.52
1
3807.61
1
4028.88
1
4038.57
1
3968.43
1
3960.55
1
4337.46
1
4766.97
1
4948.61
1
4805
1
4169.03
1
3358.02
1
2531.35
1
1761.42
1
1164.81
1
796.41
1
550.96
1
385.991
1
304.887
1
239.358
1
225.165
1
209.873
1
179.375
1
164.322
1
147.994
1
131.518
1
143.08
1
117.612
1
110.754
1
116.999
1
124.925
1
113.691
1
128.023
1
132.512
1
112.152
1
114.216
1
99.8972
1
103.057
1
90.4753
1
106.551
1
118.752
1
104.551
1
91.5989
1
110.55
1
109.691
1
87.9198
1
112.439
1
103.376
1
109.554
1
104.627
1
88.015
1
73.875
1
86.546
1
93.897
1
102.269
1
83.5335
1
84.2751
1
86.3521
1
99.8905
1
113.399
1
95.2633
1
94.6468
1
123.23
1
116.19
1
114.703
1
93.5021
1
75.4783
1
103.248
1
87.3392
1
82.4155
1
86.3796
1
90.3224
1
96.2872
1
102.953
1
87.4878
1
86.1718
1
97.0511
1
104.245
1
94.3562
1
96.8117
1
91.6804
1
90.5762
1
89.4271
1
100.345
1
87.9337
1
83.8542
1
88.2141
1
100.42
1
91.216
1
81.1803
1
end of experiment
